{
	"resourceType": "Bundle",
	"type": "transaction",
	"entry": [
		{
			"resource": {
				"resourceType": "Condition",
				"id": "cc-cond-pnoelle-ckd3",
				"text": {
					"status": "generated",
					"div": "<div xmlns=\"http://www.w3.org/1999/xhtml\">Chronic kidney diseas stage 3</div>"
				},
				"clinicalStatus": {
					"coding": [
						{
							"system": "http://terminology.hl7.org/CodeSystem/condition-clinical",
							"code": "inactive"
						}
					]
				},
				"verificationStatus": {
					"coding": [
						{
							"system": "http://terminology.hl7.org/CodeSystem/condition-ver-status",
							"code": "confirmed"
						}
					]
				},
				"category": [
					{
						"coding": [
							{
								"system": "http://terminology.hl7.org/CodeSystem/condition-category",
								"code": "problem-list-item",
								"display": "Problem List Item"
							}
						],
						"text": "Problem"
					}
				],
				"severity": {
					"coding": [
						{
							"system": "http://snomed.info/sct",
							"code": "24484000",
							"display": "Severe"
						}
					],
					"text": "Severe"
				},
				"code": {
					"coding": [
						{
							"system": "http://snomed.info/sct",
							"code": "433144002",
							"display": "Chronic kidney disease stage 3 (disorder)"
						}
					],
					"text": "Chronic kidney disease"
				},
				"subject": {
					"reference": "Patient/cc-pat-pnoelle",
					"display": "Patricia Noelle"
				},
				"onsetDateTime": "2018-11-30",
				"asserter": {
					"reference": "Practitioner/cc-prac-jones-vince",
					"display": "Dr. Vince Jones, MD"
				}
			},
			"request": {
				"method": "PUT",
				"url": "Condition/cc-cond-pnoelle-ckd3"
			}
		},
			{
			"resource": {
				"resourceType": "Condition",
				"id": "cc-cond-pnoelle-ckd",
				"text": {
					"status": "generated",
					"div": "<div xmlns=\"http://www.w3.org/1999/xhtml\">Chronic kidney disease</div>"
				},
				"clinicalStatus": {
					"coding": [
						{
							"system": "http://terminology.hl7.org/CodeSystem/condition-clinical",
							"code": "inactive"
						}
					]
				},
				"verificationStatus": {
					"coding": [
						{
							"system": "http://terminology.hl7.org/CodeSystem/condition-ver-status",
							"code": "confirmed"
						}
					]
				},
				"category": [
					{
						"coding": [
							{
								"system": "http://terminology.hl7.org/CodeSystem/condition-category",
								"code": "problem-list-item",
								"display": "Problem List Item"
							}
						],
						"text": "Problem"
					}
				],
				"severity": {
					"coding": [
						{
							"system": "http://snomed.info/sct",
							"code": "24484000",
							"display": "Severe"
						}
					],
					"text": "Severe"
				},
				"code": {
					"coding": [
						{
							"system": "http://snomed.info/sct",
							"code": "431857002",
							"display": "Chronic kidney disease stage 4 (disorder)"
						}
					],
					"text": "Chronic kidney disease"
				},
				"subject": {
					"reference": "Patient/cc-pat-pnoelle",
					"display": "Patricia Noelle"
				},
				"onsetDateTime": "2020-08-30",
				"asserter": {
					"reference": "Practitioner/cc-prac-jones-vince",
					"display": "Dr. Vince Jones, MD"
				}
			},
			"request": {
				"method": "PUT",
				"url": "Condition/cc-cond-pnoelle-ckd4"
			}
		},
		{
			"resource": {
				"resourceType": "CarePlan",
				"id": "cc-careplan-pnoelle-ckd",
				"text": {
					"status": "generated",
					"div": "<div xmlns=\"http://www.w3.org/1999/xhtml\">Pat's CKD care plan</div>"
				},
				"status": "active",
				"intent": "plan",
				"title": "CKD Care Plan",
				"description": "Care plan to slow progression of CKD and Type 4 Diabetes.",
				"subject": {
					"reference": "Patient/cc-pat-pnoelle"
				},
				"period": {
					"start": "2018-06-01"
				},
				"author": {
					"reference": "Practitioner/cc-prac-jones-vince",
					"display": "Dr. Vince Jones, MD"
				},
				"careTeam": [
					{
						"reference": "CareTeam/cc-team-pnoelle"
					}
				],
				"addresses": [
					{
						"reference": "Condition/cc-cond-pnoelle-diabetes"
					},
					{
						"reference": "Condition/cc-cond-pnoelle-ckd4"
					}
				],
				"supportingInfo": [
										{
						"reference": "Condition/cc-cond-pnoelle-ckd"
					},
											{
						"reference": "Condition/cc-cond-pnoelle-ckd3"
					}
					
				],
				"goal": [
					{
						"reference": "Goal/cc-goal-pnoelle-bp-systolic"
					},
					{
						"reference": "Goal/cc-goal-pnoelle-lab-phos"
					},
					{
						"reference": "Goal/cc-goal-pnoelle-a1c"
					}
				],
				"activity": [
					{
						"reference": {
							"reference": "ServiceRequest/cc-service-pnoelle-edu-ckd"
						}
					},
					{
						"reference": {
							"reference": "ServiceRequest/cc-service-pnoelle-edu-diet"
						}
					},
					{
						"reference": {
							"reference": "ServiceRequest/cc-service-pnoelle-exercise"
						}
					},
					{
						"reference": {
							"reference": "ServiceRequest/cc-service-pnoelle-steps"
						}
					},
					{
						"reference": {
							"reference": "MedicationRequest/cc-med-pnoelle-vitamin-d"
						}
					},
					{
						"reference": {
							"reference": "MedicationRequest/cc-med-pnoelle-insulin"
						}
					}
				]
			},
			"request": {
				"method": "PUT",
				"url": "CarePlan/cc-careplan-pnoelle-ckd"
			}
		}
	]
}
